{
  "resourceType": "CarePlan",
  "id": "AncVisit-PlanDefinition",
  "contained": [
    {
      "resourceType": "RequestGroup",
      "id": "AncVisit-PlanDefinition",
      "instantiatesCanonical": [
        "http://fhir.org/guides/cdc/opioid-cds/PlanDefinition/AncVisit-PlanDefinition"
      ],
      "status": "draft",
      "intent": "proposal",
      "subject": {
        "reference": "Patient/TEST_PATIENT"
      },
      "action": [
        {
          "priority": "routine",
          "type": {
            "coding": [
              {
                "code": "clinical-protocol",
                "display": "Clinical Protocol"
              }
            ]
          },
          "resource": {
            "reference": "Task/careplan-activity"
          }
        }
      ]
    },
    {
      "resourceType": "Goal",
      "id": "1",
      "lifecycleStatus": "proposed",
      "category": [
        {
          "coding": [
            {
              "system": "https://www.hl7.org/fhir/codesystem-goal-category.html",
              "code": "nursing",
              "display": "Nursing"
            }
          ]
        }
      ],
      "priority": {
        "coding": [
          {
            "system": "https://www.hl7.org/fhir/codesystem-goal-priority.html",
            "code": "high-priority",
            "display": "High Priority"
          }
        ]
      },
      "subject": {
        "reference": "Patient/TEST_PATIENT"
      },
      "startCodeableConcept": {
        "coding": [
          {
            "system": "http://www.snomed.org/",
            "code": "32485007",
            "display": "Admission to hospital"
          }
        ]
      }
    },
    {
      "resourceType": "Task",
      "id": "careplan-activity",
      "extension": [
        {
          "url": "http://hl7.org/fhir/us/ecr/StructureDefinition/targetStatus",
          "valueString": "ready"
        }
      ],
      "instantiatesCanonical": "ActivityDefinition/careplan-activity",
      "basedOn": [
        {
          "reference": "#RequestGroup/AncVisit-PlanDefinition",
          "type": "RequestGroup"
        }
      ],
      "status": "ready",
      "intent": "proposal",
      "code": {
        "coding": [
          {
            "system": "http://example.org/CodeSystem/encounter-type",
            "code": "pregnant_monthly_visit",
            "display": "Pregnant (ANC) Monthly Routine visit"
          }
        ],
        "text": "Pregnant (ANC) Monthly Routine visit"
      },
      "description": "This action will performed every month for a pregnant woman",
      "for": {
        "reference": "Patient/TEST_PATIENT"
      }
    }
  ],
  "instantiatesCanonical": [
    "http://fhir.org/guides/cdc/opioid-cds/PlanDefinition/AncVisit-PlanDefinition"
  ],
  "status": "draft",
  "intent": "proposal",
  "subject": {
    "reference": "Patient/TEST_PATIENT"
  },
  "goal": [
    {
      "reference": "#1"
    }
  ],
  "activity": [
    {
      "reference": {
        "reference": "#RequestGroup/AncVisit-PlanDefinition"
      }
    }
  ]
}