{
  "resourceType": "Bundle",
  "id": "DischargeInstructions-Patient-Data",
  "type": "collection",
  "entry": [
    {
      "resource": {
        "resourceType": "Patient",
        "id": "Patient1",
        "name": [
          {
            "given": [
              "Alice"
            ]
          }
        ]
      }
    },
    {
      "resource": {
        "resourceType": "Encounter",
        "id": "Encounter1",
        "status": "in-progress",
        "class": {
          "code": "AMB",
          "system": "http://terminology.hl7.org/CodeSystem/v3-ActCode"
        },
        "subject": {
          "reference": "Patient/Patient1"
        },
        "participant": [
          {
            "individual": {
              "reference": "Practitioner/Practitioner1"
            }
          }
        ]
      }
    },
    {
      "resource": {
        "resourceType": "Practitioner",
        "id": "Practitioner1",
        "name": [
          {
            "given": [
              "Michael"
            ]
          }
        ]
      }
    },
    {
      "resource": {
        "resourceType": "MedicationRequest",
        "id": "PastMedicationRequest",
        "status": "active",
        "intent": "order",
        "authoredOn": "2023-01-01",
        "medicationCodeableConcept": {
          "text": "Some medication"
        },
        "subject": {
          "reference": "Patient/Patient1"
        }
      }
    },
    {
      "resource": {
        "resourceType": "DetectedIssue",
        "id": "DetectedIssue1",
        "status": "final",
        "code": {
          "coding": [
            {
              "code": "TIME",
              "system": "http://terminology.hl7.org/CodeSystem/v3-ActCode",
              "display": "Time-related Detected Issue"
            }
          ]
        },
        "severity": "high",
        "patient": {
          "reference": "Patient/Patient1"
        },
        "identifiedDateTime": "2023-01-01"
      }
    },
    {
      "resource": {
        "resourceType": "Condition",
        "id": "Condition1",
        "clinicalStatus": {
          "coding": [
            {
              "code": "active",
              "system": "http://terminology.hl7.org/CodeSystem/condition-clinical"
            }
          ]
        },
        "verificationStatus": {
          "coding": [
            {
              "code": "provisional",
              "system": "http://terminology.hl7.org/CodeSystem/condition-ver-status"
            }
          ]
        },
        "category": [
          {
            "coding": [
              {
                "code": "problem-list-item",
                "system": "http://terminology.hl7.org/CodeSystem/condition-category"
              }
            ]
          }
        ],
        "code": {
          "coding": [
            {
              "code": "422504002",
              "system": "http://snomed.info/sct",
              "display": "Ischemic stroke (disorder)"
            }
          ]
        },
        "subject": {
          "reference": "Patient/Patient1"
        },
        "recordedDate": "2023-01-01"
      }
    },
    {
      "resource": {
        "resourceType": "Observation",
        "id": "Inference1",
        "status": "final",
        "code": {
          "text": "Inference",
          "coding": [
            {
              "code": "448765001",
              "system": "http://snomed.info/sct",
              "display": "Unintentional weight loss (finding)"
            }
          ]
        },
        "subject": {
          "reference": "Patient/Patient1"
        },
        "effectiveDateTime": "2023-01-01"
      }
    },
    {
      "resource": {
        "resourceType": "Flag",
        "id": "Flag1",
        "status": "active",
        "category": [
          {
            "coding": [
              {
                "code": "admin",
                "system": "http://terminology.hl7.org/CodeSystem/flag-category",
                "display": "Administrative"
              }
            ]
          }
        ],
        "code": {
          "text": "Flag"
        },
        "subject": {
          "reference": "Patient/Patient1"
        },
        "period": {
          "start": "2023-01-01",
          "end": "2024-01-01"
        }
      }
    }
  ]
}