{
	"resourceType": "Bundle",
	"id": "1b36355c-ee52-4d1a-ae06-45c6f08380td",
	"meta": {
		"versionId": "9b2459d6-ffa8-4ecb-97e5-7bf0fac15e87",
		"lastUpdated": "2020-12-23T14:39:37.969+00:00",
		"profile": [
			"https://fhir.hl7.org.uk/StructureDefinition/UKCore-Bundle"
		]
	},
	"type": "message",
	"entry": [{
			"resource": {
				"resourceType": "Observation",
				"id": "anc-b8-de17-example",
				"meta": {
					"profile": ["http://fhir.org/guides/who/anc-cds/StructureDefinition/anc-b8-de17"]
				},
				"identifier": [{
					"use": "official",
					"system": "http://example.org/fhir/NamingSystem/identifiers",
					"value": "anc-b8-de17-example"
				}],
				"status": "final",
				"code": {
					"coding": [{
						"system": "http://fhir.org/guides/who/anc-cds/CodeSystem/anc-custom-codes",
						"code": "ANC.B8.DE17",
						"display": "Systolic blood pressure"
					}, {
						"system": "http://snomed.info/sct",
						"code": "271649006",
						"display": "Systolic blood pressure (observable entity)"
					}, {
						"system": "http://loinc.org",
						"code": "8480-6",
						"display": "Systolic blood pressure"
					}, {
						"system": "http://hl7.org/fhir/sid/icf-nl",
						"code": "b4209",
						"display": "Blood pressure functions, unspecified"
					}]
				},
				"subject": {
					"reference": "Patient/5946f880-b197-400b-9caa-a3c661d23041"
				},
				"encounter": {
					"reference": "Encounter/ANCDT17-encounter"
				},
				"performer": [{
					"reference": "PractitionerRole/anc-practitionerrole-example"
				}],
				"valueQuantity": {
					"value": 160,
					"system": "http://unitsofmeasure.org",
					"code": "mm[Hg]"
				}
			}
		},
		{
			"resource": {
				"resourceType": "Observation",
				"id": "anc-b8-de20-example",
				"meta": {
					"profile": ["http://fhir.org/guides/who/anc-cds/StructureDefinition/anc-b8-de20"]
				},
				"identifier": [{
					"use": "official",
					"system": "http://example.org/fhir/NamingSystem/identifiers",
					"value": "anc-b8-de20-example"
				}],
				"status": "final",
				"code": {
					"coding": [{
						"system": "http://fhir.org/guides/who/anc-cds/CodeSystem/anc-custom-codes",
						"code": "ANC.B8.DE20",
						"display": "Repeat systolic blood pressure"
					}, {
						"system": "http://snomed.info/sct",
						"code": "271649006",
						"display": "Systolic blood pressure (observable entity)"
					}, {
						"system": "http://loinc.org",
						"code": "8480-6",
						"display": "Systolic blood pressure"
					}, {
						"system": "http://hl7.org/fhir/sid/icf-nl",
						"code": "b4209",
						"display": "Blood pressure functions, unspecified"
					}]
				},
				"subject": {
					"reference": "Patient/5946f880-b197-400b-9caa-a3c661d23041"
				},
				"encounter": {
					"reference": "Encounter/ANCDT17-encounter"
				},
				"performer": [{
					"reference": "PractitionerRole/anc-practitionerrole-example"
				}],
				"valueQuantity": {
					"value": 160,
					"system": "http://unitsofmeasure.org",
					"code": "mm[Hg]"
				}
			}
		},
		{
			"resource": {
				"resourceType": "Observation",
				"id": "anc-b8-de27-example",
				"meta": {
					"profile": ["http://fhir.org/guides/who/anc-cds/StructureDefinition/anc-b8-de27"]
				},
				"identifier": [{
					"use": "official",
					"system": "http://example.org/fhir/NamingSystem/identifiers",
					"value": "anc-b8-de27-example"
				}],
				"status": "final",
				"code": {
					"coding": [{
						"system": "http://fhir.org/guides/who/anc-cds/CodeSystem/anc-custom-codes",
						"code": "ANC.B8.DE27",
						"display": "Symptoms of severe pre-eclampsia"
					}]
				},
				"subject": {
					"reference": "Patient/5946f880-b197-400b-9caa-a3c661d23041"
				},
				"encounter": {
					"reference": "Encounter/ANCDT17-encounter"
				},
				"performer": [{
					"reference": "PractitionerRole/anc-practitionerrole-example"
				}],
				"valueCodeableConcept": {
					"coding": [{
						"system": "http://fhir.org/guides/who/anc-cds/CodeSystem/anc-custom-codes",
						"code": "ANC.B8.DE29",
						"display": "Vomiting"
					}]
				}
			}
		},
		{
			"resource": {
				"resourceType": "Observation",
				"id": "anc-b9-de144-example",
				"meta": {
					"profile": ["http://fhir.org/guides/who/anc-cds/StructureDefinition/anc-b9-de144"]
				},
				"identifier": [{
					"use": "official",
					"system": "http://example.org/fhir/NamingSystem/identifiers",
					"value": "anc-b9-de144-example"
				}],
				"status": "final",
				"code": {
					"coding": [{
						"system": "http://fhir.org/guides/who/anc-cds/CodeSystem/anc-custom-codes",
						"code": "ANC.B9.DE144",
						"display": "Urine dipstick result - protein"
					}]
				},
				"subject": {
					"reference": "Patient/5946f880-b197-400b-9caa-a3c661d23041"
				},
				"encounter": {
					"reference": "Encounter/ANCDT17-encounter"
				},
				"performer": [{
					"reference": "PractitionerRole/anc-practitionerrole-example"
				}],
				"valueCodeableConcept": {
					"coding": [{
						"system": "http://fhir.org/guides/who/anc-cds/CodeSystem/anc-custom-codes",
						"code": "ANC.B9.DE146",
						"display": "+"
					}]
				}
			}
		},
		{
			"resource": {
				"resourceType": "Encounter",
				"id": "ANCDT17-encounter",
				"meta": {
					"profile": ["http://hl7.org/fhir/us/qicore/StructureDefinition/qicore-encounter"]
				},
				"status": "finished",
				"class": {
					"system": "http://terminology.hl7.org/CodeSystem/v3-ActCode",
					"code": "AMB",
					"display": "ambulatory"
				},
				"type": [{
					"coding": [{
						"system": "http://snomed.info/sct",
						"version": "2020-09",
						"code": "185463005",
						"display": "Visit out of hours (procedure)"
					}]
				}],
				"subject": {
					"reference": "Patient/5946f880-b197-400b-9caa-a3c661d23041"
				},
				"period": {
					"start": "2020-01-01T10:00:00-07:00",
					"end": "2020-01-01T11:00:00-07:00"
				}
			},
			"request": {
				"method": "PUT",
				"url": "Encounter/ANCDT17-encounter"
			}
		},
		{
		     "resource": {
		        "resourceType": "Patient",
		        "id": "Patient/5946f880-b197-400b-9caa-a3c661d23041",
		        "active": true,
		        "name": [
		          {
		            "family": "Hadi",
		            "given": [
		              "Bareera"
		            ]
		          }
		        ],
		        "gender": "female",
		        "birthDate": "1999-01-14"
	      	}
      	}
]
}
