{
  "resourceType": "Bundle",
  "id": "test-bundle-two-patients",
  "type": "collection",
  "entry": [
    {
      "resource": {
        "resourceType": "Condition",
        "id": "test-one-r4-2",
        "meta": {
          "profile": [
            "http://hl7.org/fhir/us/core/StructureDefinition/us-core-condition"
          ]
        },
        "verificationStatus": {
          "coding": [
            {
              "system": "http://terminology.hl7.org/CodeSystem/condition-ver-status",
              "code": "confirmed",
              "display": "Confirmed"
            }
          ]
        },
        "category": [
          {
            "coding": [
              {
                "system": "http://terminology.hl7.org/CodeSystem/condition-category",
                "code": "encounter-diagnosis",
                "display": "Encounter Diagnosis"
              }
            ]
          }
        ],
        "code": {
          "coding": [
            {
              "system": "http://snomed.info/sct",
              "code": "10327003",
              "display": "Cocaine-induced mood disorder (disorder)"
            }
          ]
        },
        "subject": {
          "reference": "Patient/test-one-r4"
        },
        "onsetDateTime": "2020-12-14"
      }
    },
    {
      "resource": {
        "resourceType": "Condition",
        "id": "test-one-r4-6",
        "meta": {
          "profile": [
            "http://hl7.org/fhir/us/core/StructureDefinition/us-core-condition"
          ]
        },
        "verificationStatus": {
          "coding": [
            {
              "system": "http://terminology.hl7.org/CodeSystem/condition-ver-status",
              "code": "confirmed",
              "display": "Confirmed"
            }
          ]
        },
        "category": [
          {
            "coding": [
              {
                "system": "http://terminology.hl7.org/CodeSystem/condition-category",
                "code": "encounter-diagnosis",
                "display": "Encounter Diagnosis"
              }
            ]
          }
        ],
        "code": {
          "coding": [
            {
              "system": "http://localhost/unit-test",
              "code": "000"
            }
          ]
        },
        "subject": {
          "reference": "Patient/test-one-r4"
        }
      }
    },
    {
      "resource": {
        "resourceType": "Encounter",
        "id": "test-one-r4-1",
        "meta": {
          "profile": [
            "http://hl7.org/fhir/us/core/StructureDefinition/us-core-encounter"
          ]
        },
        "status": "finished",
        "class": {
          "system": "http://terminology.hl7.org/CodeSystem/v3-ActCode",
          "code": "IMP",
          "display": "inpatient encounter"
        },
        "type": [
          {
            "coding": [
              {
                "system": "http://snomed.info/sct",
                "code": "32485007",
                "display": "Hospital admission (procedure)"
              }
            ]
          }
        ],
        "subject": {
          "reference": "Patient/test-one-r4"
        },
        "period": {
          "start": "2019-01-16T08:30:00-07:00",
          "end": "2019-01-20T08:30:00-07:00"
        },
        "diagnosis": [
          {
            "condition": {
              "reference": "Condition/test-one-r4-2"
            }
          }
        ],
        "hospitalization": {
          "dischargeDisposition": {
            "coding": [
              {
                "system": "http://snomed.info/sct",
                "code": "306701001",
                "display": "Discharge to community hospital (procedure)"
              }
            ]
          }
        }
      }
    },
    {
      "resource": {
        "resourceType": "MedicationAdministration",
        "id": "test-one-r4-5",
        "status": "completed",
        "medicationCodeableConcept": {
          "coding": [
            {
              "system": "http://www.nlm.nih.gov/research/umls/rxnorm",
              "code": "854228",
              "display": "0.3 ML Enoxaparin sodium 100 MG/ML Prefilled Syringe"
            }
          ]
        },
        "subject": {
          "reference": "Patient/test-one-r4"
        },
        "effectivePeriod": {
          "start": "2019-01-19T12:30:00-07:00",
          "end": "2019-01-19T13:00:00-07:00"
        }
      }
    },
    {
      "resource": {
        "resourceType": "Patient",
        "id": "test-one-r4",
        "meta": {
          "profile": [
            "http://hl7.org/fhir/us/core/StructureDefinition/us-core-patient"
          ]
        },
        "extension": [
          {
            "url": "http://hl7.org/fhir/us/core/StructureDefinition/us-core-race",
            "extension": [
              {
                "url": "ombCategory",
                "valueCoding": {
                  "system": "urn:oid:2.16.840.1.113883.6.238",
                  "code": "2106-3",
                  "display": "White"
                }
              }
            ]
          },
          {
            "url": "http://hl7.org/fhir/us/core/StructureDefinition/us-core-ethnicity",
            "extension": [
              {
                "url": "ombCategory",
                "valueCoding": {
                  "system": "urn:oid:2.16.840.1.113883.6.238",
                  "code": "2186-5",
                  "display": "Not Hispanic or Latino"
                }
              }
            ]
          }
        ],
        "identifier": [
          {
            "use": "usual",
            "type": {
              "coding": [
                {
                  "system": "http://terminology.hl7.org/CodeSystem/v2-0203",
                  "code": "MR",
                  "display": "Medical Record Number"
                }
              ]
            },
            "system": "http://hospital.smarthealthit.org",
            "value": "999999996"
          }
        ],
        "name": [
          {
            "family": "Jones",
            "given": [
              "Frank"
            ]
          }
        ],
        "gender": "male",
        "birthDate": "1951-05-01"
      }
    },
    {
      "resource": {
        "resourceType": "Procedure",
        "id": "test-one-r4-4",
        "meta": {
          "profile": [
            "http://hl7.org/fhir/us/core/StructureDefinition/us-core-procedure"
          ]
        },
        "status": "completed",
        "code": {
          "coding": [
            {
              "system": "http://snomed.info/sct",
              "code": "112943005",
              "display": "Epidural injection of anesthetic substance"
            }
          ]
        },
        "subject": {
          "reference": "Patient/test-one-r4"
        },
        "performedPeriod": {
          "start": "2019-01-17T08:30:00-07:00",
          "end": "2019-01-17T10:30:00-07:00"
        }
      }
    },
    {
      "resource": {
        "resourceType": "Condition",
        "id": "test-two-r4-2",
        "meta": {
          "profile": [
            "http://hl7.org/fhir/us/core/StructureDefinition/us-core-condition"
          ]
        },
        "verificationStatus": {
          "coding": [
            {
              "system": "http://terminology.hl7.org/CodeSystem/condition-ver-status",
              "code": "confirmed",
              "display": "Confirmed"
            }
          ]
        },
        "category": [
          {
            "coding": [
              {
                "system": "http://terminology.hl7.org/CodeSystem/condition-category",
                "code": "encounter-diagnosis",
                "display": "Encounter Diagnosis"
              }
            ]
          }
        ],
        "code": {
          "coding": [
            {
              "system": "http://snomed.info/sct",
              "code": "213213007",
              "display": "Cardiac arrest as a complication of care (disorder)"
            }
          ]
        },
        "subject": {
          "reference": "Patient/test-two-r4"
        }
      }
    },
    {
      "resource": {
        "resourceType": "Encounter",
        "id": "test-two-r4-3",
        "meta": {
          "profile": [
            "http://hl7.org/fhir/us/core/StructureDefinition/us-core-encounter"
          ]
        },
        "status": "finished",
        "class": {
          "system": "http://terminology.hl7.org/CodeSystem/v3-ActCode",
          "code": "IMP",
          "display": "inpatient encounter"
        },
        "type": [
          {
            "coding": [
              {
                "system": "http://snomed.info/sct",
                "code": "32485007",
                "display": "Hospital admission (procedure)"
              }
            ]
          }
        ],
        "subject": {
          "reference": "Patient/test-two-r4"
        },
        "period": {
          "start": "2019-01-16T08:30:00-07:00",
          "end": "2019-01-20T08:30:00-07:00"
        },
        "diagnosis": [
          {
            "condition": {
              "reference": "Condition/test-two-r4-2"
            },
            "use": {
              "coding": [
                {
                  "system": "http://hl7.org/fhir/diagnosis-role",
                  "code": "billing",
                  "display": "Billing"
                }
              ]
            },
            "rank": 1
          }
        ],
        "hospitalization": {
          "dischargeDisposition": {
            "coding": [
              {
                "system": "http://snomed.info/sct",
                "code": "306701001",
                "display": "Discharge to community hospital (procedure)"
              }
            ]
          }
        }
      }
    },
    {
      "resource": {
        "resourceType": "MedicationAdministration",
        "id": "test-two-r4-5",
        "status": "completed",
        "medicationCodeableConcept": {
          "coding": [
            {
              "system": "http://www.nlm.nih.gov/research/umls/rxnorm",
              "code": "854228",
              "display": "0.3 ML Enoxaparin sodium 100 MG/ML Prefilled Syringe"
            }
          ]
        },
        "subject": {
          "reference": "Patient/test-two-r4"
        },
        "effectivePeriod": {
          "start": "2019-01-16T12:30:00-07:00",
          "end": "2019-01-16T13:00:00-07:00"
        }
      }
    },
    {
      "resource": {
        "resourceType": "Patient",
        "id": "test-two-r4",
        "meta": {
          "profile": [
            "http://hl7.org/fhir/us/core/StructureDefinition/us-core-patient"
          ]
        },
        "extension": [
          {
            "url": "http://hl7.org/fhir/us/core/StructureDefinition/us-core-race",
            "extension": [
              {
                "url": "ombCategory",
                "valueCoding": {
                  "system": "urn:oid:2.16.840.1.113883.6.238",
                  "code": "2106-3",
                  "display": "White"
                }
              }
            ]
          },
          {
            "url": "http://hl7.org/fhir/us/core/StructureDefinition/us-core-ethnicity",
            "extension": [
              {
                "url": "ombCategory",
                "valueCoding": {
                  "system": "urn:oid:2.16.840.1.113883.6.238",
                  "code": "2186-5",
                  "display": "Not Hispanic or Latino"
                }
              }
            ]
          }
        ],
        "identifier": [
          {
            "use": "usual",
            "type": {
              "coding": [
                {
                  "system": "http://terminology.hl7.org/CodeSystem/v2-0203",
                  "code": "MR",
                  "display": "Medical Record Number"
                }
              ]
            },
            "system": "http://hospital.smarthealthit.org",
            "value": "999999997"
          }
        ],
        "name": [
          {
            "family": "Smith",
            "given": [
              "Jill"
            ]
          }
        ],
        "gender": "female",
        "birthDate": "1963-09-13"
      }
    },
    {
      "resource": {
        "resourceType": "Medication",
        "id": "test-med",
        "contained": [
          {
            "resourceType": "Organization",
            "id": "org4",
            "name": "Pfizer Laboratories Div Pfizer Inc"
          }
        ],
        "code": {
          "coding": [
            {
              "system": "http://hl7.org/fhir/sid/ndc",
              "code": "0069-2587-10",
              "display": "Vancomycin Hydrochloride (VANCOMYCIN HYDROCHLORIDE)"
            }
          ]
        },
        "status": "active",
        "manufacturer": {
          "reference": "#org4"
        },
        "form": {
          "coding": [
            {
              "system": "http://snomed.info/sct",
              "code": "385219001",
              "display": "Injection Solution (qualifier value)"
            }
          ]
        },
        "ingredient": [
          {
            "itemCodeableConcept": {
              "coding": [
                {
                  "system": "http://www.nlm.nih.gov/research/umls/rxnorm",
                  "code": "66955",
                  "display": "Vancomycin Hydrochloride"
                }
              ]
            },
            "isActive": true,
            "strength": {
              "numerator": {
                "value": 500,
                "system": "http://unitsofmeasure.org",
                "code": "mg"
              },
              "denominator": {
                "value": 10,
                "system": "http://unitsofmeasure.org",
                "code": "mL"
              }
            }
          }
        ],
        "batch": {
          "lotNumber": "9494788",
          "expirationDate": "2017-05-22"
        }
      }
    }
  ]
}