{
  "resourceType": "CarePlan",
  "contained": [
    {
      "resourceType": "RequestGroup",
      "id": "opioidcds-10-patient-view",
      "instantiatesCanonical": [
        "http://fhir.org/guides/cdc/opioid-cds/PlanDefinition/opioidcds-10-patient-view"
      ],
      "status": "draft",
      "intent": "proposal",
      "subject": {
        "reference": "example-rec-10-patient-view-POS-Cocaine-drugs"
      },
      "encounter": {
        "reference": "example-rec-10-patient-view-POS-Cocaine-drugs-prefetch"
      },
      "action": [
        {
          "title": "Positive Cocaine or PCP in Urine Screening",
          "description": "<br/>*Positive for Cocaine: <br/>2022-06-02, 2022-02-23<br/>Note: result may be false positive result or indicate patient is occasional user or addicted to the illicit drug.",
          "resource": {
            "reference": "ServiceRequest/opioidcds-urine-screening-request"
          }
        }
      ]
    },
    {
      "resourceType": "ServiceRequest",
      "id": "opioidcds-urine-screening-request",
      "status": "draft",
      "intent": "order",
      "code": {
        "coding": [
          {
            "system": "http://snomed.info/sct",
            "code": "310627008",
            "display": "Urine drug screening (procedure)"
          }
        ]
      },
      "subject": {
        "reference": "example-rec-10-patient-view-POS-Cocaine-drugs"
      }
    }
  ],
  "instantiatesCanonical": [
    "http://fhir.org/guides/cdc/opioid-cds/PlanDefinition/opioidcds-10-patient-view"
  ],
  "status": "draft",
  "intent": "proposal",
  "subject": {
    "reference": "example-rec-10-patient-view-POS-Cocaine-drugs"
  },
  "encounter": {
    "reference": "example-rec-10-patient-view-POS-Cocaine-drugs-prefetch"
  },
  "activity": [
    {
      "reference": {
        "reference": "#opioidcds-10-patient-view"
      }
    }
  ]
}