{
  "resourceType": "Bundle",
  "id": "tests-Rec10-PV-bundle",
  "type": "transaction",
  "entry": [
    {
      "resource": {
        "resourceType": "Patient",
        "extension": [
          {
            "url": "http://fhir.org/guides/cdc/opioid-cds/StructureDefinition/dataDateRoller",
            "extension": [
              {
                "url": "dateLastUpdated",
                "valueDateTime": "2022-04-28"
              },
              {
                "url": "frequency",
                "valueDuration": {
                  "value": 30.0,
                  "unit": "days",
                  "system": "http://unitsofmeasure.org",
                  "code": "d"
                }
              }
            ]
          }
        ],
        "id": "example-rec-10-patient-view-POS-Cocaine-drugs",
        "gender": "female",
        "birthDate": "1982-01-07",
        "name": [
          {
            "family": "Smith",
            "given": [
              "John",
              "A."
            ]
          }
        ]
      },
      "request": {
        "method": "PUT",
        "url": "Patient/example-rec-10-patient-view-POS-Cocaine-drugs"
      }
    },
    {
      "resource": {
        "resourceType": "MedicationRequest",
        "extension": [
          {
            "url": "http://fhir.org/guides/cdc/opioid-cds/StructureDefinition/dataDateRoller",
            "extension": [
              {
                "url": "dateLastUpdated",
                "valueDateTime": "2022-04-28"
              },
              {
                "url": "frequency",
                "valueDuration": {
                  "value": 30.0,
                  "unit": "days",
                  "system": "http://unitsofmeasure.org",
                  "code": "d"
                }
              }
            ]
          }
        ],
        "id": "example-rec-10-patient-view-POS-Cocaine-drugs-prefetch",
        "status": "active",
        "intent": "order",
        "category": [
          {
            "coding": [
              {
                "system": "http://terminology.hl7.org/CodeSystem/medicationrequest-category",
                "code": "community"
              }
            ]
          }
        ],
        "medicationCodeableConcept": {
          "coding": [
            {
              "system": "http://www.nlm.nih.gov/research/umls/rxnorm",
              "code": "1049502",
              "display": "12 HR Oxycodone Hydrochloride 10 MG Extended Release Oral Tablet"
            }
          ]
        },
        "subject": {
          "reference": "Patient/example-rec-10-patient-view-POS-Cocaine-drugs"
        },
        "encounter": {
          "reference": "Encounter/example-rec-10-patient-view-POS-Cocaine-drugs-prefetch"
        },
        "authoredOn": "2022-01-28",
        "dosageInstruction": [
          {
            "timing": {
              "repeat": {
                "frequency": 3,
                "period": 1.0,
                "periodUnit": "d"
              }
            },
            "asNeededBoolean": false,
            "doseAndRate": [
              {
                "doseQuantity": {
                  "value": 1.0,
                  "unit": "tablet",
                  "system": "http://unitsofmeasure.org",
                  "code": "{tablet}"
                }
              }
            ]
          }
        ],
        "dispenseRequest": {
          "validityPeriod": {
            "start": "2022-01-28",
            "end": "2022-04-28"
          },
          "numberOfRepeatsAllowed": 3,
          "expectedSupplyDuration": {
            "value": 30.0,
            "unit": "days",
            "system": "http://unitsofmeasure.org",
            "code": "d"
          }
        }
      },
      "request": {
        "method": "PUT",
        "url": "MedicationRequest/example-rec-10-patient-view-POS-Cocaine-drugs-prefetch"
      }
    },
    {
      "resource": {
        "resourceType": "MedicationRequest",
        "extension": [
          {
            "url": "http://fhir.org/guides/cdc/opioid-cds/StructureDefinition/dataDateRoller",
            "extension": [
              {
                "url": "dateLastUpdated",
                "valueDateTime": "2022-04-28"
              },
              {
                "url": "frequency",
                "valueDuration": {
                  "value": 30.0,
                  "unit": "days",
                  "system": "http://unitsofmeasure.org",
                  "code": "d"
                }
              }
            ]
          }
        ],
        "id": "example-rec-10-patient-view-POS-Cocaine-drugs-context",
        "status": "active",
        "intent": "order",
        "category": [
          {
            "coding": [
              {
                "system": "http://terminology.hl7.org/CodeSystem/medicationrequest-category",
                "code": "community"
              }
            ]
          }
        ],
        "medicationCodeableConcept": {
          "coding": [
            {
              "system": "http://www.nlm.nih.gov/research/umls/rxnorm",
              "code": "197696",
              "display": "72 HR Fentanyl 0.075 MG/HR Transdermal System"
            }
          ]
        },
        "subject": {
          "reference": "Patient/example-rec-10-patient-view-POS-Cocaine-drugs"
        },
        "encounter": {
          "reference": "Encounter/example-rec-10-patient-view-POS-Cocaine-drugs-prefetch"
        },
        "authoredOn": "2022-04-28",
        "dosageInstruction": [
          {
            "timing": {
              "repeat": {
                "frequency": 1,
                "period": 12.0,
                "periodUnit": "d"
              }
            },
            "asNeededBoolean": false,
            "doseAndRate": [
              {
                "doseQuantity": {
                  "value": 1.0,
                  "unit": "patch",
                  "system": "http://unitsofmeasure.org",
                  "code": "{patch}"
                }
              }
            ]
          }
        ],
        "dispenseRequest": {
          "validityPeriod": {
            "start": "2022-04-28",
            "end": "2022-07-28"
          },
          "numberOfRepeatsAllowed": 3,
          "expectedSupplyDuration": {
            "value": 30.0,
            "unit": "days",
            "system": "http://unitsofmeasure.org",
            "code": "d"
          }
        }
      },
      "request": {
        "method": "PUT",
        "url": "MedicationRequest/example-rec-10-patient-view-POS-Cocaine-drugs-context"
      }
    },
    {
      "resource": {
        "resourceType": "Observation",
        "extension": [
          {
            "url": "http://fhir.org/guides/cdc/opioid-cds/StructureDefinition/dataDateRoller",
            "extension": [
              {
                "url": "dateLastUpdated",
                "valueDateTime": "2022-04-28"
              },
              {
                "url": "frequency",
                "valueDuration": {
                  "value": 30.0,
                  "unit": "days",
                  "system": "http://unitsofmeasure.org",
                  "code": "d"
                }
              }
            ]
          }
        ],
        "id": "example-rec-10-patient-view-POS-Cocaine-drugs-prefetch",
        "status": "final",
        "category": {
          "coding": [
            {
              "system": "http://terminology.hl7.org/CodeSystem/observation-category",
              "code": "laboratory"
            }
          ]
        },
        "code": {
          "coding": [
            {
              "system": "http://loinc.org",
              "code": "70146-6",
              "display": "Benzoylecgonine [Mass/volume] in Urine by Screen method"
            }
          ]
        },
        "subject": {
          "reference": "Patient/example-rec-10-patient-view-POS-Cocaine-drugs"
        },
        "effectiveDateTime": "2022-06-02",
        "valueString": "POS",
        "interpretation": [
          {
            "coding": [
              {
                "system": "http://hl7.org/fhir/v2/0078",
                "code": "POS"
              }
            ]
          }
        ]
      },
      "request": {
        "method": "PUT",
        "url": "Observation/example-rec-10-patient-view-POS-Cocaine-drugs-prefetch"
      }
    },
    {
      "resource": {
        "resourceType": "Observation",
        "extension": [
          {
            "url": "http://fhir.org/guides/cdc/opioid-cds/StructureDefinition/dataDateRoller",
            "extension": [
              {
                "url": "dateLastUpdated",
                "valueDateTime": "2022-04-28"
              },
              {
                "url": "frequency",
                "valueDuration": {
                  "value": 30.0,
                  "unit": "days",
                  "system": "http://unitsofmeasure.org",
                  "code": "d"
                }
              }
            ]
          }
        ],
        "id": "example-rec-10-patient-view-POS-Cocaine-drugs-prefetch",
        "status": "final",
        "category": {
          "coding": [
            {
              "system": "http://terminology.hl7.org/CodeSystem/observation-category",
              "code": "laboratory"
            }
          ]
        },
        "code": {
          "coding": [
            {
              "system": "http://loinc.org",
              "code": "70146-6",
              "display": "Benzoylecgonine [Mass/volume] in Urine by Screen method"
            }
          ]
        },
        "subject": {
          "reference": "Patient/example-rec-10-patient-view-POS-Cocaine-drugs"
        },
        "effectiveDateTime": "2022-03-01",
        "valueString": "NEG",
        "interpretation": [
          {
            "coding": [
              {
                "system": "http://hl7.org/fhir/v2/0078",
                "code": "NEG"
              }
            ]
          }
        ]
      },
      "request": {
        "method": "PUT",
        "url": "Observation/example-rec-10-patient-view-POS-Cocaine-drugs-prefetch"
      }
    },
    {
      "resource": {
        "resourceType": "Observation",
        "extension": [
          {
            "url": "http://fhir.org/guides/cdc/opioid-cds/StructureDefinition/dataDateRoller",
            "extension": [
              {
                "url": "dateLastUpdated",
                "valueDateTime": "2022-04-28"
              },
              {
                "url": "frequency",
                "valueDuration": {
                  "value": 30.0,
                  "unit": "days",
                  "system": "http://unitsofmeasure.org",
                  "code": "d"
                }
              }
            ]
          }
        ],
        "id": "example-rec-10-patient-view-illicit-drugs-POS-Opiate-prefetch-obs2",
        "status": "final",
        "category": {
          "coding": [
            {
              "system": "http://terminology.hl7.org/CodeSystem/observation-category",
              "code": "laboratory"
            }
          ]
        },
        "code": {
          "coding": [
            {
              "system": "http://loinc.org",
              "version": "2.68",
              "code": "11246-6",
              "display": "oxyCODONE (U) [Mass/Vol]"
            }
          ]
        },
        "subject": {
          "reference": "Patient/example-rec-10-patient-view-POS-Cocaine-drugs"
        },
        "effectiveDateTime": "2022-04-01",
        "valueString": "NEG",
        "interpretation": [
          {
            "coding": [
              {
                "system": "http://hl7.org/fhir/v2/0078",
                "code": "NEG"
              }
            ]
          }
        ]
      },
      "request": {
        "method": "PUT",
        "url": "Observation/example-rec-10-patient-view-illicit-drugs-POS-Opiate-prefetch-obs2"
      }
    },
    {
      "resource": {
        "resourceType": "Observation",
        "extension": [
          {
            "url": "http://fhir.org/guides/cdc/opioid-cds/StructureDefinition/dataDateRoller",
            "extension": [
              {
                "url": "dateLastUpdated",
                "valueDateTime": "2022-04-28"
              },
              {
                "url": "frequency",
                "valueDuration": {
                  "value": 30.0,
                  "unit": "days",
                  "system": "http://unitsofmeasure.org",
                  "code": "d"
                }
              }
            ]
          }
        ],
        "id": "example-rec-10-patient-view-POS-Cocaine-drugs-prefetch-4",
        "status": "final",
        "category": {
          "coding": [
            {
              "system": "http://terminology.hl7.org/CodeSystem/observation-category",
              "code": "laboratory"
            }
          ]
        },
        "code": {
          "coding": [
            {
              "system": "http://loinc.org",
              "code": "70146-6",
              "display": "Benzoylecgonine [Mass/volume] in Urine by Screen method"
            }
          ]
        },
        "subject": {
          "reference": "Patient/example-rec-10-patient-view-POS-Cocaine-drugs"
        },
        "effectiveDateTime": "2022-02-23",
        "valueString": "POS",
        "interpretation": [
          {
            "coding": [
              {
                "system": "http://hl7.org/fhir/v2/0078",
                "code": "POS"
              }
            ]
          }
        ]
      },"request": {
      "method": "PUT",
      "url": "Observation/example-rec-10-patient-view-POS-Cocaine-drugs-prefetch-4"
    }
    },{
      "resource": {
        "resourceType": "Encounter",
        "id": "example-rec-10-patient-view-POS-Cocaine-drugs-prefetch",
        "meta": {
          "profile": [ "http://hl7.org/fhir/us/qicore/StructureDefinition/qicore-encounter" ]
        },
        "status": "finished",
        "class": {
          "system": "http://terminology.hl7.org/CodeSystem/v3-ActCode",
          "code": "AMB",
          "display": "ambulatory"
        },
        "type": [ {
          "coding": [ {
            "system": "http://snomed.info/sct",
            "version": "2020-09",
            "code": "185463005",
            "display": "Visit out of hours (procedure)"
          } ]
        } ],
        "subject": {
          "reference": "Patient/example-rec-10-patient-view-POS-Cocaine-drugs"
        },
        "period": {
          "start": "2020-01-01T10:00:00-07:00",
          "end": "2020-01-01T11:00:00-07:00"
        }
      },
      "request": {
        "method": "PUT",
        "url": "Patient/example-rec-10-patient-view-POS-Cocaine-drugs"
      }
    }
  ]
}
