{
  "resourceType": "CarePlan",
  "id": "17",
  "contained": [
    {
      "resourceType": "RequestGroup",
      "id": "17",
      "instantiatesCanonical": [
        "http://localhost/PlanDefinition/MedRequest-Example"
      ],
      "status": "draft",
      "intent": "proposal",
      "subject": {
        "reference": "Patient/Patient-Example"
      },
      "action": [
        {
          "id": "medication-action-1",
          "title": "Administer Medication 1",
          "resource": {
            "reference": "MedicationRequest/16"
          }
        }
      ]
    },
    {
      "resourceType": "MedicationRequest",
      "id": "16",
      "status": "draft",
      "intent": "order",
      "medicationCodeableConcept": {
        "text": "Medication 1"
      },
      "subject": {
        "reference": "Patient/Patient-Example"
      },
      "instantiatesCanonical": [
        "http://localhost/ActivityDefinition/MedicationRequest-1"
      ]
    }
  ],
  "instantiatesCanonical": [
    "http://localhost/PlanDefinition/MedRequest-Example"
  ],
  "status": "draft",
  "intent": "proposal",
  "subject": {
    "reference": "Patient/Patient-Example"
  },
  "activity": [
    {
      "reference": {
        "reference": "#RequestGroup/17"
      }
    }
  ]
}
