{
  "resourceType": "CarePlan",
  "id": "17",
  "contained": [ {
    "resourceType": "RequestGroup",
    "id": "17",
    "instantiatesCanonical": [ "http://example.com/PlanDefinition/Plan-Definition-Example" ],
    "status": "draft",
    "intent": "proposal",
    "subject": {
      "reference": "Patient/Female-Patient-Example"
    },
    "action": [ {
      "title": "Test for Female Patient",
      "condition": [ {
        "kind": "applicability",
        "expression": {
          "language": "text/cql.identifier",
          "expression": "Patient is Female"
        }
      } ],
      "resource": {
        "reference": "Task/16"
      }
    } ]
  }, {
    "resourceType": "Task",
    "id": "16",
    "extension": [ {
      "url": "http://hl7.org/fhir/aphl/StructureDefinition/condition",
      "valueExpression": {
        "language": "text/cql.identifier",
        "expression": "Patient is Female"
      }
    } ],
    "instantiatesCanonical": "http://example.com/ActivityDefinition/Activity-Example",
    "basedOn": [ {
      "reference": "#RequestGroup/17",
      "type": "RequestGroup"
    } ],
    "status": "draft",
    "intent": "proposal",
    "description": "Example Task",
    "for": {
      "reference": "Patient/Female-Patient-Example"
    }
  } ],
  "instantiatesCanonical": [ "http://example.com/PlanDefinition/Plan-Definition-Example" ],
  "status": "draft",
  "intent": "proposal",
  "subject": {
    "reference": "Patient/Female-Patient-Example"
  },
  "activity": [ {
    "reference": {
      "reference": "#RequestGroup/17"
    }
  } ]
}