{
    "resourceType": "CarePlan",
    "contained": [ {
      "resourceType": "RequestGroup",
      "id": "1",
      "status": "draft",
      "intent": "proposal",
      "action": [ {
        "resource": {
          "reference": "#start"
        }
      }, {
        "resource": {
          "reference": "#ckr-is-encounter-reportable"
        }
      }, {
        "resource": {
          "reference": "#ckr-is-encounter-in-progress"
        }
      }, {
        "resource": {
          "reference": "#check-reportable"
        }
      }, {
        "resource": {
          "reference": "#car-report-eicr"
        }
      }, {
        "resource": {
          "reference": "#car-is-encounter-complete"
        }
      }, {
        "resource": {
          "reference": "#car-is-encounter-in-progress"
        }
      }, {
        "resource": {
          "reference": "#create-and-report-eicr"
        }
      }, {
        "resource": {
          "reference": "#create-eicr"
        }
      }, {
        "resource": {
          "reference": "#validate-eicr"
        }
      }, {
        "resource": {
          "reference": "#route-and-send-eicr"
        }
      } ]
    }, {
      "resourceType": "Task",
      "id": "start",
      "extension": [ {
        "url": "http://hl7.org/fhir/us/ecr/StructureDefinition/targetStatus",
        "valueString": "ready"
      }, {
        "url": "http://hl7.org/fhir/aphl/StructureDefinition/next",
        "extension": [ {
          "url": "http://hl7.org/fhir/aphl/StructureDefinition/offset",
          "valueDuration": {
            "value": 1,
            "system": "http://unitsofmeasure.org",
            "code": "h"
          }
        }, {
          "url": "http://hl7.org/fhir/aphl/StructureDefinition/target",
          "valueReference": {
            "reference": "#check-reportable"
          }
        } ]
      } ],
      "basedOn": [ {
        "reference": "#1",
        "type": "RequestGroup"
      } ],
      "status": "ready",
      "description": "This action represents the start of the reporting workflow in response to the encounter-start event"
    }, {
      "resourceType": "Task",
      "id": "ckr-is-encounter-reportable",
      "extension": [ {
        "url": "http://hl7.org/fhir/aphl/StructureDefinition/next",
        "extension": [ {
          "url": "http://hl7.org/fhir/aphl/StructureDefinition/target",
          "valueReference": {
            "reference": "#create-and-report-eicr"
          }
        } ]
      }, {
        "url": "http://hl7.org/fhir/aphl/StructureDefinition/condition",
        "valueExpression": {
          "extension": [ {
            "url": "http://hl7.org/fhir/us/ecr/StructureDefinition/us-ph-alternativeExpression",
            "valueExpression": {
              "language": "text/cql-identifier",
              "expression": "Is Reportable",
              "reference": "http://aphl.org/fhir/ecr/Library/RuleFilters|1.0.0"
            }
          } ],
          "language": "text/fhirpath",
          "expression": "%conditions.exists() or %encounters.exists() or %immunizations.exists() or %procedures.exists() or %procedureOrders.exists() or %labOrders.exists() or %labTests.exists() or %labResults.exists() or %medicationAdministrations.exists() or %medicationOrders.exists() or %medicationDispenses.exists()"
        }
      }, {
        "url": "http://hl7.org/fhir/aphl/StructureDefinition/input",
        "valueDataRequirement": {
          "id": "conditions",
          "type": "Condition",
          "codeFilter": [ {
            "path": "code",
            "valueSet": "http://hl7.org/fhir/us/ecr/ValueSet/valueset-dxtc-example"
          } ]
        }
      }, {
        "url": "http://hl7.org/fhir/aphl/StructureDefinition/input",
        "valueDataRequirement": {
          "id": "encounters",
          "type": "Encounter",
          "codeFilter": [ {
            "path": "reasonCode",
            "valueSet": "http://hl7.org/fhir/us/ecr/ValueSet/valueset-dxtc-example"
          } ]
        }
      }, {
        "url": "http://hl7.org/fhir/aphl/StructureDefinition/input",
        "valueDataRequirement": {
          "id": "immunizations",
          "type": "Immunization",
          "codeFilter": [ {
            "path": "vaccineCode",
            "valueSet": "http://hl7.org/fhir/us/ecr/ValueSet/valueset-mrtc-example"
          } ]
        }
      }, {
        "url": "http://hl7.org/fhir/aphl/StructureDefinition/input",
        "valueDataRequirement": {
          "id": "labOrders",
          "type": "ServiceRequest",
          "codeFilter": [ {
            "path": "code",
            "valueSet": "http://hl7.org/fhir/us/ecr/ValueSet/valueset-lotc-example"
          } ]
        }
      }, {
        "url": "http://hl7.org/fhir/aphl/StructureDefinition/input",
        "valueDataRequirement": {
          "id": "labTests",
          "type": "Observation",
          "codeFilter": [ {
            "path": "code",
            "valueSet": "http://hl7.org/fhir/us/ecr/ValueSet/valueset-lotc-example"
          } ]
        }
      }, {
        "url": "http://hl7.org/fhir/aphl/StructureDefinition/input",
        "valueDataRequirement": {
          "id": "procedureOrders",
          "type": "ServiceRequest",
          "codeFilter": [ {
            "path": "code",
            "valueSet": "http://hl7.org/fhir/us/ecr/ValueSet/valueset-pctc-example"
          } ]
        }
      }, {
        "url": "http://hl7.org/fhir/aphl/StructureDefinition/input",
        "valueDataRequirement": {
          "id": "procedures",
          "type": "Procedure",
          "codeFilter": [ {
            "path": "code",
            "valueSet": "http://hl7.org/fhir/us/ecr/ValueSet/valueset-pctc-example"
          } ]
        }
      }, {
        "url": "http://hl7.org/fhir/aphl/StructureDefinition/input",
        "valueDataRequirement": {
          "id": "medicationOrders",
          "type": "MedicationRequest",
          "codeFilter": [ {
            "path": "medication",
            "valueSet": "http://hl7.org/fhir/us/ecr/ValueSet/valueset-mrtc-example"
          } ]
        }
      }, {
        "url": "http://hl7.org/fhir/aphl/StructureDefinition/input",
        "valueDataRequirement": {
          "id": "medicationDispenses",
          "type": "MedicationDispense",
          "codeFilter": [ {
            "path": "medication",
            "valueSet": "http://hl7.org/fhir/us/ecr/ValueSet/valueset-mrtc-example"
          } ]
        }
      }, {
        "url": "http://hl7.org/fhir/aphl/StructureDefinition/input",
        "valueDataRequirement": {
          "id": "medicationAdministrations",
          "type": "MedicationAdministration",
          "codeFilter": [ {
            "path": "medication",
            "valueSet": "http://hl7.org/fhir/us/ecr/ValueSet/valueset-mrtc-example"
          } ]
        }
      }, {
        "url": "http://hl7.org/fhir/aphl/StructureDefinition/input",
        "valueDataRequirement": {
          "id": "labResults",
          "type": "Observation",
          "codeFilter": [ {
            "path": "value",
            "valueSet": "http://hl7.org/fhir/us/ecr/ValueSet/valueset-ostc-example"
          } ]
        }
      } ],
      "basedOn": [ {
        "reference": "#1",
        "type": "RequestGroup"
      } ],
      "status": "draft",
      "description": "Check Encounter Reportable"
    }, {
      "resourceType": "Task",
      "id": "ckr-is-encounter-in-progress",
      "extension": [ {
        "url": "http://hl7.org/fhir/aphl/StructureDefinition/next",
        "extension": [ {
          "url": "http://hl7.org/fhir/aphl/StructureDefinition/offset",
          "valueDuration": {
            "value": 6,
            "system": "http://unitsofmeasure.org",
            "code": "h"
          }
        }, {
          "url": "http://hl7.org/fhir/aphl/StructureDefinition/target",
          "valueReference": {
            "reference": "#check-reportable"
          }
        } ]
      }, {
        "url": "http://hl7.org/fhir/aphl/StructureDefinition/condition",
        "valueExpression": {
          "extension": [ {
            "url": "http://hl7.org/fhir/us/ecr/StructureDefinition/us-ph-alternativeExpression",
            "valueExpression": {
              "language": "text/cql-identifier",
              "expression": "Is Encounter In Progress",
              "reference": "http://aphl.org/fhir/ecr/Library/RuleFilters|1.0.0"
            }
          } ],
          "language": "text/fhirpath",
          "expression": "%encounter.status = 'in-progress'"
        }
      } ],
      "basedOn": [ {
        "reference": "#1",
        "type": "RequestGroup"
      } ],
      "status": "draft",
      "description": "Check Reportable Is Encounter in progress"
    }, {
      "resourceType": "Task",
      "id": "check-reportable",
      "basedOn": [ {
        "reference": "#1",
        "type": "RequestGroup"
      } ],
      "status": "draft",
      "description": "This action represents the check for suspected reportability of the eICR."
    }, {
      "resourceType": "Task",
      "id": "car-report-eicr",
      "extension": [ {
        "url": "http://hl7.org/fhir/aphl/StructureDefinition/next",
        "extension": [ {
          "url": "http://hl7.org/fhir/aphl/StructureDefinition/target",
          "valueReference": {
            "reference": "#report-eicr"
          }
        } ]
      } ],
      "basedOn": [ {
        "reference": "#1",
        "type": "RequestGroup"
      } ],
      "status": "draft",
      "description": "Report Eicr"
    }, {
      "resourceType": "Task",
      "id": "car-is-encounter-complete",
      "extension": [ {
        "url": "http://hl7.org/fhir/aphl/StructureDefinition/next",
        "extension": [ {
          "url": "http://hl7.org/fhir/aphl/StructureDefinition/offset",
          "valueDuration": {
            "value": 24,
            "system": "http://unitsofmeasure.org",
            "code": "h"
          }
        }, {
          "url": "http://hl7.org/fhir/aphl/StructureDefinition/target",
          "valueReference": {
            "reference": "#report-eicr"
          }
        } ]
      }, {
        "url": "http://hl7.org/fhir/aphl/StructureDefinition/condition",
        "valueExpression": {
          "extension": [ {
            "url": "http://hl7.org/fhir/us/ecr/StructureDefinition/us-ph-alternativeExpression",
            "valueExpression": {
              "language": "text/cql-identifier",
              "expression": "Is Encounter Complete",
              "reference": "http://aphl.org/fhir/ecr/Library/RuleFilters|1.0.0"
            }
          } ],
          "language": "text/fhirpath",
          "expression": "%encounter.status = 'finished'"
        }
      } ],
      "basedOn": [ {
        "reference": "#1",
        "type": "RequestGroup"
      } ],
      "status": "draft",
      "description": "Check If Encounter Complete"
    }, {
      "resourceType": "Task",
      "id": "car-is-encounter-in-progress",
      "extension": [ {
        "url": "http://hl7.org/fhir/aphl/StructureDefinition/next",
        "extension": [ {
          "url": "http://hl7.org/fhir/aphl/StructureDefinition/offset",
          "valueDuration": {
            "value": 24,
            "system": "http://unitsofmeasure.org",
            "code": "h"
          }
        }, {
          "url": "http://hl7.org/fhir/aphl/StructureDefinition/target",
          "valueReference": {
            "reference": "#create-and-report-eicr"
          }
        } ]
      }, {
        "url": "http://hl7.org/fhir/aphl/StructureDefinition/condition",
        "valueExpression": {
          "extension": [ {
            "url": "http://hl7.org/fhir/us/ecr/StructureDefinition/us-ph-alternativeExpression",
            "valueExpression": {
              "language": "text/cql-identifier",
              "expression": "Is Encounter In Progress",
              "reference": "http://aphl.org/fhir/ecr/Library/RuleFilters|1.0.0"
            }
          } ],
          "language": "text/fhirpath",
          "expression": "%encounter.status = 'in-progress'"
        }
      } ],
      "basedOn": [ {
        "reference": "#1",
        "type": "RequestGroup"
      } ],
      "status": "draft",
      "description": "Check If Encounter In Progress"
    }, {
      "resourceType": "Task",
      "id": "create-and-report-eicr",
      "basedOn": [ {
        "reference": "#1",
        "type": "RequestGroup"
      } ],
      "status": "draft",
      "description": "This action represents the creation and reporting of the eICR."
    }, {
      "resourceType": "Task",
      "id": "create-eicr",
      "extension": [ {
        "url": "http://hl7.org/fhir/aphl/StructureDefinition/next",
        "extension": [ {
          "url": "http://hl7.org/fhir/aphl/StructureDefinition/target",
          "valueReference": {
            "reference": "#validate-eicr"
          }
        } ]
      } ],
      "basedOn": [ {
        "reference": "#1",
        "type": "RequestGroup"
      } ],
      "status": "draft",
      "description": "This action represents the creation of the eICR."
    }, {
      "resourceType": "Task",
      "id": "validate-eicr",
      "extension": [ {
        "url": "http://hl7.org/fhir/aphl/StructureDefinition/next",
        "extension": [ {
          "url": "http://hl7.org/fhir/aphl/StructureDefinition/target",
          "valueReference": {
            "reference": "#route-and-send-eicr"
          }
        } ]
      } ],
      "basedOn": [ {
        "reference": "#1",
        "type": "RequestGroup"
      } ],
      "status": "draft",
      "description": "This action represents the validation of the eICR."
    }, {
      "resourceType": "Task",
      "id": "route-and-send-eicr",
      "basedOn": [ {
        "reference": "#1",
        "type": "RequestGroup"
      } ],
      "status": "draft",
      "description": "This action represents the routing and sending of the eICR."
    } ],
    "instantiatesCanonical": [ "plandefinition-RuleFilters-1.0.0" ],
    "status": "draft",
    "subject": {
      "reference": "Reportable"
    },
    "activity": [ {
      "reference": {
        "reference": "#1"
      }
    } ]
  }